File: Comparstic Raman F2Ba Au IAEA 240930.csv
Particle Name;Material;HQI;RamanSignal;FluorescenceSignal;Area [µm²];Aspect Ratio;CE Diameter [µm];Circularity;Convex Area [µm²];Convex Perimeter [µm];Convexity;Feret Max [µm];Feret Min [µm];Focus Z Position [µm];Length [µm];Num Pixels;Perimeter [µm];SE Volume [µm³];Solidity;Width [µm];Visual Center Point X [µm];Visual Center Point Y [µm];Visual Center Point Z [µm]
791;Polyethylene (PE);98.74;4.81192;30.2206;794.224;0.778;31.800;0.902;821.248;103.765;0.937;36.533;28.298;9.030;36.533;2410.000;110.792;16837.532;0.967;28.415;765.441;-1002.64;-13.24
454;Polypropylene (PP);96.54;8.05365;118.757;1996.930;0.279;50.424;0.597;2170.275;225.707;0.850;99.314;29.380;9.030;105.231;6059.500;265.434;67128.672;0.920;29.380;1536.41;383.155;-13.24
385;Cellulose Acetate Butyrate (CAB)   ;95.27;3.36931;182.478;1112.902;0.833;37.643;0.496;1447.399;140.942;0.591;48.305;39.739;18.250;47.709;3377.000;238.609;27928.619;0.769;39.739;8649.11;4906.23;-13.24
316;Polypropylene (PP)   ;94.64;1.15943;62.3483;400.078;0.600;22.570;0.755;439.789;81.423;0.867;32.117;18.592;18.250;31.574;1214.000;93.882;6019.784;0.910;18.944;5583.02;4985.46;-13.24
303;Cellulose Acetate Butyrate (CAB)   ;94.29;2.14389;160.346;800.815;0.965;31.932;0.892;827.674;102.909;0.915;34.232;31.256;27.470;32.722;2430.000;112.416;17047.562;0.968;31.574;11747.4;535.857;-13.24
514;Polyethylene terephtalate (PET)   ;93.92;3.27429;240.885;29412.328;0.538;193.517;0.451;35852.629;734.761;0.545;297.294;158.382;45.900;294.630;89249.000;1349.139;3794529.291;0.820;158.382;6091.07;4596.24;-13.24
682;Polyacrylamide/acrylate   ;93.55;1.00489;190.731;761.434;0.912;31.137;0.902;788.127;102.521;0.945;36.533;29.194;-9.400;32.722;2310.500;108.472;15805.631;0.966;29.852;4663.93;-4479.2;-13.24
476;Cellulose Acetate Butyrate (CAB)   ;93.40;1.8119;132.835;377.339;0.517;21.919;0.794;406.669;78.870;0.910;31.574;16.616;18.250;32.131;1145.000;86.715;5513.928;0.928;16.616;5597.37;6026.24;-13.24
579;Polyethylene terephtalate (PET)   ;93.29;14.7241;591.128;130536.836;0.464;407.682;0.433;173647.884;1733.566;0.585;739.551;340.600;45.900;733.367;396102.000;2960.985;35478350.868;0.752;340.600;606.424;101.288;-13.24
432;Cellulose Acetate Butyrate (CAB)   ;93.21;1.6527;53.4035;5169.542;0.492;81.130;0.600;5770.813;304.883;0.718;124.514;58.943;27.470;120.584;15686.500;424.611;279603.081;0.896;59.270;7356.31;4834.48;-13.24
360;Polyethylene terephtalate (PET)   ;93.07;5.38895;404.551;91420.473;0.320;341.175;0.476;108696.990;1500.787;0.666;656.270;211.368;73.540;660.172;277407.000;2253.419;20793566.954;0.841;211.368;2679.96;2856.24;-13.24
62;Cellulose Acetate Butyrate (CAB)   ;93.00;2.90225;126.914;739.189;0.714;30.678;0.805;812.679;106.486;0.890;38.667;26.625;18.250;37.378;2243.000;119.699;15118.085;0.910;26.682;10891.4;2449.22;-13.24
704;Polyethylene terephtalate (PET)   ;92.90;14.488;458.218;1859.341;0.446;48.656;0.759;1952.605;179.865;0.893;75.736;33.749;27.470;75.740;5642.000;201.509;60311.828;0.952;33.749;8472.3;3616.88;-13.24
728;Polyacrylamide/acrylate   ;92.77;0.811081;185.895;1298.771;0.570;40.665;0.797;1413.950;145.067;0.905;54.684;30.770;-9.400;54.022;3941.000;160.325;35209.716;0.919;30.770;6112.31;-4643.95;-13.24
507;Polyamide (PA)    ;92.56;4.56409;320.549;1277.020;0.799;40.323;0.874;1318.050;131.405;0.907;46.499;36.166;9.030;45.828;3875.000;144.924;34328.943;0.969;36.619;1736.76;-601.945;-13.24
27;Cellulose Acetate Butyrate (CAB)   ;92.43;6.724;352.936;428.255;0.799;23.351;0.547;572.105;90.669;0.676;32.068;22.963;9.030;28.910;1299.500;134.173;6666.798;0.749;23.105;6178.32;831.502;-13.24
165;Cellulose Acetate Butyrate (CAB)   ;92.36;0.317963;76.574;756.161;0.914;31.029;0.866;802.298;104.540;0.929;36.199;29.722;9.030;33.296;2294.500;112.589;15641.736;0.942;30.426;10777.2;2330.97;-13.24
754;Cellulose Acetate Butyrate (CAB)   ;92.21;6.59184;281.945;612.311;0.707;27.922;0.799;652.187;94.054;0.856;33.375;23.537;18.250;33.296;1858.000;109.841;11397.811;0.939;23.537;3995.14;3565.79;-13.24
131;Polyacrylamide/acrylate   ;92.00;6.04679;278.078;1313.601;0.888;40.897;0.801;1376.710;134.231;0.837;47.200;38.098;27.470;43.852;3986.000;160.407;35814.493;0.954;38.958;3639.22;4283.94;-13.24
368;Polyethylene terephtalate (PET)   ;91.93;8.22938;286.384;4543.720;0.837;76.061;0.639;5017.948;262.305;0.701;88.111;73.131;9.030;87.373;13787.500;374.093;230399.302;0.905;73.131;7610.05;-1564.08;-13.24
109;Polyacrylamide/acrylate   ;91.74;0.673689;149.017;1132.840;0.525;37.979;0.830;1182.933;133.002;0.925;53.962;28.264;-9.400;53.915;3437.500;143.833;28682.495;0.958;28.289;2492.81;-3304.65;-13.24
32;Cellulose Acetate Butyrate (CAB)   ;91.63;3.06691;206.991;708.375;0.947;30.032;0.480;924.068;110.308;0.561;37.578;32.621;18.250;34.819;2149.500;196.580;14182.704;0.767;32.968;8634.18;3438.92;-13.24
238;Cellulose Acetate Butyrate (CAB)   ;91.58;5.05909;160.758;770.496;0.881;31.321;0.720;857.993;106.482;0.779;37.345;30.861;18.250;35.036;2338.000;136.608;16088.651;0.898;30.861;2769.51;5085.92;-13.24
377;Cellulose Acetate Butyrate (CAB)   ;91.44;2.66156;212.642;812.679;0.721;32.167;0.888;837.231;106.303;0.934;38.463;27.190;-0.180;37.698;2466.000;113.761;17427.796;0.971;27.190;6630.69;-3839.69;-13.24
606;Cellulose Acetate Butyrate (CAB)   ;91.35;2.60814;140.711;558.099;0.701;26.657;0.715;628.788;94.218;0.805;34.098;24.082;18.250;34.349;1693.500;117.066;9918.150;0.888;24.082;10255.4;4611.16;-13.24
198;Polyacrylamide/acrylate   ;91.20;1.30914;171.637;801.145;0.539;31.938;0.789;843.657;111.449;0.877;43.901;23.772;27.470;44.133;2431.000;127.145;17058.086;0.950;23.772;8126.14;5171.45;-13.24
641;Cellulose Acetate Butyrate (CAB)   ;91.11;0;30.9412;857.498;0.939;33.042;0.863;904.625;109.958;0.914;39.756;30.724;27.470;34.858;2602.000;120.337;18889.211;0.948;32.746;2726.46;1017.5;-13.24
763;Polyethylene terephtalate (PET)   ;91.06;17.7233;747.2;7920.161;0.766;100.420;0.655;8536.097;341.285;0.709;123.443;88.396;27.470;115.464;24033.000;481.451;530230.678;0.928;88.396;10754.8;3500.92;-13.24
44;Cellulose Acetate Butyrate (CAB)   ;91.04;2.05633;162.604;1487.605;0.608;43.521;0.640;1730.651;158.058;0.740;60.077;36.538;18.250;60.130;4514.000;213.581;43161.368;0.860;36.538;5421.13;5390.17;-13.24
561;Polyethylene terephtalate (PET)   ;90.96;2.96513;210.529;32605.538;0.281;203.751;0.279;67874.857;1266.605;0.553;571.113;160.833;36.680;573.006;98938.500;2290.251;4428950.783;0.480;160.833;2472.14;-797.128;-13.24
517;Polyacrylamide/acrylate   ;90.87;0.725042;65.4966;971.194;0.820;35.165;0.462;1291.685;134.355;0.561;48.796;36.880;27.470;45.716;2947.000;239.363;22767.905;0.752;37.492;9928.71;4724.25;-13.24
192;Polyethylene terephtalate (PET)   ;90.75;8.12072;350.051;1356.278;0.854;41.556;0.842;1418.563;136.499;0.881;47.575;38.001;27.470;45.262;4115.500;155.002;37573.944;0.956;38.657;2168.46;5172.6;-13.24
775;Cellulose Acetate Butyrate (CAB)   ;90.68;3.94257;183.432;688.932;0.717;29.617;0.854;723.535;101.098;0.928;37.483;25.263;18.250;35.210;2090.500;108.914;13602.794;0.952;25.263;3984.24;3526.75;-13.24
279;Cellulose Acetate Butyrate (CAB)   ;90.52;7.37413;182.872;658.613;0.764;28.958;0.517;844.316;108.716;0.617;37.888;27.386;-0.180;35.898;1998.500;176.111;12714.787;0.780;27.412;3679.98;-2344.81;-13.24
664;Polyethylene terephtalate (PET)   ;90.36;22.7442;699.135;5769.495;0.622;85.709;0.601;6480.177;307.394;0.686;120.763;73.284;18.250;118.892;17507.000;448.352;329663.199;0.890;73.901;4888.39;-839.035;-13.24
711;Cellulose Acetate Butyrate (CAB)   ;90.13;4.34073;209.808;347.844;0.660;21.045;0.564;426.607;78.176;0.667;29.524;19.317;9.030;29.286;1055.500;117.148;4880.229;0.815;19.317;1661.56;122.529;-13.24
25;Cellulose Acetate Butyrate (CAB)   ;90.02;0.425775;91.8278;861.618;0.935;33.122;0.708;991.956;116.380;0.791;44.158;31.256;-9.400;35.971;2614.500;147.047;19025.490;0.869;33.627;1806.23;-3173.77;-13.24
241;Cellulose Acetate Butyrate (CAB)   ;89.85;1.97764;161.726;1351.005;0.470;41.475;0.669;1603.113;162.335;0.834;66.624;31.238;18.250;66.458;4099.500;194.712;37355.040;0.843;31.238;8076.19;3132.36;-13.24
701;Polyacrylamide/acrylate   ;89.66;0.952871;130.792;822.731;0.713;32.366;0.669;954.552;118.463;0.780;45.185;30.283;18.250;42.763;2496.500;151.952;17752.120;0.862;30.511;4770.14;2620.3;-13.24
58;Polyamide (PA)    ;89.47;2.6847;135.707;1505.071;0.975;43.776;0.800;1626.512;146.382;0.852;50.833;42.855;18.250;45.877;4567.000;171.888;43923.748;0.925;44.733;9988.98;4332.17;-13.24
511;Polyethylene terephtalate (PET)   ;89.17;5.69585;306.461;1980.782;0.687;50.220;0.852;2058.721;166.109;0.897;61.999;42.460;27.470;61.787;6010.500;185.214;66316.069;0.962;42.466;908.383;1122.55;-13.24
714;Polyethylene terephtalate (PET)   ;88.89;16.4081;479.44;16199.536;0.713;143.617;0.635;17005.130;473.672;0.667;171.532;122.889;55.100;172.347;49156.000;710.447;1551020.989;0.953;122.889;3679.98;4414.83;-13.24
726;Polyethylene terephtalate (PET)   ;88.76;3.13639;173.627;419.192;0.789;23.103;0.911;432.374;75.277;0.945;26.443;20.467;18.250;26.224;1272.000;79.629;6456.298;0.970;20.681;3301.1;4456.74;-13.24
152;Polyamide (PA)    ;88.67;2.79341;154.364;1107.794;0.969;37.556;0.828;1161.841;124.517;0.874;45.021;36.014;9.030;38.112;3361.500;142.488;27736.557;0.953;36.923;9335.12;-1233.99;-13.24
410;Cellulose Acetate Butyrate (CAB)   ;88.32;1.06292;111.7;352.458;0.719;21.184;0.829;373.219;75.764;0.943;28.754;17.623;18.250;25.979;1069.500;80.326;4977.647;0.944;18.673;4895.28;6166.89;-13.24
373;Cellulose Acetate Butyrate (CAB)   ;87.94;0.465814;112.898;707.387;0.866;30.011;0.868;751.217;102.147;0.940;35.942;28.224;9.030;32.592;2146.500;108.669;14153.023;0.942;28.224;8250.71;2097.9;-13.24
9;Polyacrylamide/acrylate    ;87.49;1.62883;111.216;837.560;0.784;32.656;0.816;924.233;113.389;0.902;39.793;30.921;9.030;39.417;2541.500;125.660;18234.256;0.906;30.921;4150.14;2504.33;-13.24
719;Polyamide (PA)    ;87.21;0.305238;82.6989;664.380;0.693;29.085;0.886;693.216;96.636;0.937;35.187;24.389;-9.400;35.172;2016.000;103.149;12882.159;0.958;24.389;1020.9;105.881;-13.24
393;Polyamide (PA)    ;87.10;3.86291;93.8852;17641.663;0.189;149.873;0.424;22295.948;819.042;0.737;381.657;72.727;55.100;383.809;53532.000;1111.678;1762678.371;0.791;72.727;6567.54;3980.26;-13.24
105;Cellulose Acetate Butyrate (CAB)   ;86.83;2.89039;158.941;765.883;0.691;31.227;0.805;814.986;106.077;0.870;39.037;26.766;18.250;39.037;2324.000;121.880;15944.359;0.940;26.981;8302.95;3350.51;-13.24
411;Polyacrylamide/acrylate    ;86.66;7.49854;499.52;2265.516;0.604;53.708;0.664;2444.629;189.481;0.746;73.168;44.424;9.030;73.525;6874.500;254.035;81117.498;0.927;44.424;8788.61;410.136;-13.24
591;Cellulose Acetate Butyrate (CAB)   ;86.37;1.78901;128.548;905.778;0.825;33.960;0.829;961.637;116.414;0.904;40.820;32.605;9.030;39.537;2748.500;128.711;20506.733;0.942;32.605;1737.34;1848.75;-13.24
541;Polyacrylamide/acrylate;86.13;0.0120409;24.7946;787.963;0.828;31.674;0.806;834.100;107.297;0.870;36.779;29.116;36.680;35.316;2391.000;123.388;16638.809;0.945;29.227;1771.78;4689.81;-13.24
625;Polyacrylamide/acrylate   ;85.48;0;52.4544;711.836;0.841;30.105;0.821;752.865;100.490;0.872;34.222;26.791;27.470;32.564;2160.000;115.269;14286.752;0.946;27.373;2546.77;3713.9;-13.24
327;Polyamide (PA)    ;85.32;3.39551;117.276;4953.026;0.538;79.413;0.646;5420.992;282.540;0.732;112.184;60.395;9.030;112.580;15029.500;386.166;262222.329;0.914;60.620;5762.7;488.784;-13.24
469;Polyacrylamide/acrylate   ;84.88;1.19269;112.693;3365.566;0.727;65.461;0.618;4070.811;243.730;0.732;86.684;63.385;18.250;87.167;10212.500;332.943;146876.047;0.827;63.385;1720.11;2846.48;-13.24
762;Polyamide (PA)    ;84.30;2.13388;39.0045;1530.776;0.562;44.148;0.676;1685.667;159.550;0.777;64.325;35.778;9.030;63.635;4645.000;205.232;45053.802;0.908;35.778;5855.12;-4774.27;-13.24
622;Cellulose Acetate Butyrate (CAB)   ;83.40;0.503733;162.197;402.055;0.898;22.625;0.784;434.352;75.878;0.836;25.316;22.164;27.470;24.680;1220.000;90.717;6064.467;0.926;22.164;5275.89;4596.24;-13.24
738;Polyethylene terephtalate (PET)   ;83.02;26.0848;1280.9;3252.859;0.604;64.356;0.608;3857.425;245.619;0.738;94.020;56.424;55.100;93.363;9870.500;332.713;139560.206;0.843;56.424;8385.04;5548.04;-13.24
535;Polyamide (PA)    ;82.58;3.43986;155.25;1105.158;0.468;37.512;0.782;1161.347;134.192;0.891;55.454;26.021;18.250;55.622;3353.500;150.607;27637.601;0.952;26.021;9387.36;2786.78;-13.24
127;Cellulose Acetate Butyrate (CAB)   ;82.22;1.69214;176.692;461.045;0.868;24.229;0.542;583.969;91.048;0.648;32.880;24.523;9.030;28.478;1399.000;140.528;7446.967;0.790;24.706;1302.77;-113.413;-13.24
254;Polyamide (PA)    ;81.82;3.65577;207.684;1056.878;0.828;36.683;0.690;1225.115;130.464;0.781;44.777;34.876;18.250;42.141;3207.000;167.099;25846.474;0.863;34.876;7699.03;3115.14;-13.24
687;Cellulose Acetate Butyrate (CAB)   ;81.68;2.62957;200.374;483.290;0.978;24.806;0.723;532.064;85.226;0.791;28.821;25.231;18.250;25.833;1466.500;107.799;7992.377;0.908;25.259;9652.58;3647.88;-13.24
536;Polyacrylamide/acrylate   ;81.23;0.0210791;117.552;605.555;0.701;27.767;0.576;749.899;103.912;0.687;37.314;24.910;9.030;35.772;1837.500;151.361;11209.698;0.808;25.073;6969.96;-2670.31;-13.24
223;Polyacrylamide/acrylate   ;80.85;3.88725;133.903;712.001;0.962;30.109;0.800;770.496;101.082;0.854;33.375;30.060;18.250;32.474;2160.500;118.296;14291.713;0.924;31.256;9019.96;3167.96;-13.24
677;Cellulose Acetate Butyrate (CAB)   ;80.43;0.00731501;54.3353;372.890;0.817;21.789;0.821;418.533;76.280;0.915;28.009;20.488;-0.180;25.474;1131.500;83.410;5416.699;0.891;20.808;6110.58;986.5;-13.24
338;Polyethylene terephtalate (PET)   ;80.21;50.819;3109.64;11281.279;0.745;119.849;0.586;12643.159;427.223;0.665;163.995;111.704;36.680;149.996;34232.000;642.333;901366.227;0.892;111.704;7269.05;-413.651;-13.24
323;Polyacrylamide/acrylate   ;79.10;0.46805;71.7815;1477.883;0.934;43.379;0.724;1633.762;148.051;0.786;51.012;42.935;27.470;47.384;4484.500;188.298;42738.956;0.905;44.272;4959;6308.68;-13.24
565;Polyamide (PA)    ;78.50;1.84674;90.9766;5365.297;0.616;82.652;0.660;5846.116;284.784;0.724;110.439;68.403;27.470;111.024;16280.500;393.251;295634.068;0.918;68.403;3531.87;-2759.29;-13.24
544;Polyacrylamide/acrylate   ;77.82;0;40.0394;767.366;0.479;31.258;0.371;1610.858;173.358;0.655;69.819;33.820;27.470;70.679;2328.500;264.694;15990.691;0.476;33.820;7350;-2684.66;-13.24
40;Polyamide (PA)    ;77.09;0.138213;87.0484;7157.410;0.232;95.463;0.270;20093.542;727.051;0.654;321.478;77.726;45.900;335.248;21718.500;1112.490;455509.682;0.356;77.726;8976.9;4308.06;-13.24
509;Polyacrylamide/acrylate    ;76.67;0;13.101;374.043;0.801;21.823;0.684;470.108;83.574;0.834;30.808;20.964;36.680;26.181;1135.000;100.180;5441.851;0.796;20.964;2180.52;2825.81;-13.24
768;Polyamide (PA)    ;75.88;3.82202;178.356;775.440;0.623;31.422;0.848;810.208;106.478;0.914;40.050;25.340;18.250;40.656;2353.000;116.451;16243.730;0.957;25.340;9467.16;2545.09;-13.24
573;Cellulose Acetate Butyrate (CAB)   ;75.02;0.75696;141.77;942.029;0.880;34.633;0.656;1213.581;135.491;0.817;51.959;35.204;9.030;43.055;2858.500;165.927;21750.045;0.776;37.888;5539.39;1074.33;-13.24
119;Cellulose Acetate Butyrate (CAB)   ;73.40;0;37.2841;795.048;0.786;31.816;0.797;843.657;108.900;0.869;43.434;27.508;27.470;37.036;2412.500;125.382;16863.738;0.942;29.099;8746.13;-108.247;-13.24
651;Polyacrylamide/acrylate   ;72.75;0.0279027;71.4458;429.408;0.511;23.382;0.701;497.626;91.133;0.870;36.939;19.115;-0.180;37.432;1303.000;104.773;6693.750;0.863;19.115;7589.96;-804.017;-13.24
594;Polyamide (PA)    ;71.19;6.39036;420.388;807.077;0.579;32.056;0.859;838.055;109.928;0.937;42.725;24.389;9.030;42.334;2449.000;117.287;17247.893;0.963;24.514;2174.2;-1767.88;-13.24
512;Polyacrylamide/acrylate   ;70.21;3.10557;218.524;535.030;0.883;26.100;0.726;613.134;92.521;0.820;30.850;26.101;9.030;29.570;1623.500;112.868;9309.606;0.873;26.101;6481.43;-596.204;-13.24
427;Polyacrylamide/acrylate    ;69.80;0.0201651;26.2998;495.154;0.557;25.109;0.612;638.345;105.206;0.816;40.795;22.762;-0.180;40.877;1502.500;128.908;8288.474;0.776;22.762;7035.41;4849.98;-13.24
308;Polyacrylamide/acrylate;69.09;1.1814;107.517;592.208;0.370;27.459;0.683;715.955;113.550;0.898;48.222;18.032;9.030;48.688;1797.000;126.390;10841.141;0.827;18.032;5457.29;4062.93;-13.24
585;Cellulose Acetate Butyrate (CAB)   ;68.28;0;28.2643;705.409;0.600;29.969;0.864;738.035;103.083;0.945;40.656;24.111;36.680;40.185;2140.500;109.029;14093.723;0.956;24.111;3835.55;1859.08;-13.24
496;Polyacrylamide/acrylate;67.26;0;79.7446;751.217;0.779;30.927;0.871;789.446;105.337;0.944;36.939;28.497;36.680;36.589;2279.500;111.604;15488.604;0.952;28.497;7473.42;5987.2;-13.24
234;Polyethylene (PE);66.19;0.00363583;17.3126;437.153;0.988;23.592;0.831;471.756;79.198;0.888;25.979;23.749;55.100;24.087;1326.500;89.151;6875.650;0.927;23.809;1339.51;2229.36;-13.24
297;Polyvinyl Chloride (PVC);65.07;0.0294853;24.8654;572.435;0.580;26.997;0.742;633.896;97.296;0.852;36.633;20.955;-9.400;36.633;1737.000;114.237;10302.737;0.903;21.244;452;-1418.84;-13.24
353;Polyamide (PA)    ;63.12;2.44117;90.5204;649.056;0.918;28.747;0.808;697.995;96.072;0.859;32.862;27.698;18.250;30.213;1969.500;111.801;12439.040;0.930;27.726;5300;4038.24;-13.24
692;Polyvinyl Chloride (PVC);61.42;0.37334;90.462;731.444;0.968;30.517;0.895;760.280;100.960;0.942;34.669;28.703;18.250;31.942;2219.500;107.127;14881.119;0.962;30.909;9935.6;1745.42;-13.24
348;Polyacrylamide/acrylate;60.75;1.53177;124.267;528.274;0.702;25.935;0.541;673.772;101.061;0.671;39.037;24.036;-0.180;35.392;1603.000;150.664;9133.835;0.784;24.838;5618.61;-2431.5;-13.24
153;Polyacrylamide/acrylate    ;60.14;0.0554762;56.936;346.361;0.533;21.000;0.679;403.868;83.256;0.857;34.145;17.118;-0.180;33.109;1051.000;97.130;4849.053;0.858;17.656;5896.46;1479.62;-13.24
275;Polyacrylamide/acrylate;59.46;0.115344;46.2373;403.209;0.651;22.658;0.563;550.025;94.049;0.744;35.028;22.856;-9.400;35.111;1223.500;126.414;6090.583;0.733;22.856;3503.17;-3658.85;-13.24
295;Polyacrylamide/acrylate    ;58.55;0.0549051;37.5932;438.965;0.962;23.641;0.522;641.311;94.197;0.663;34.915;25.069;-9.400;29.499;1332.000;142.152;6918.456;0.684;28.388;2427.37;-2369.5;-13.24
723;Cellulose Acetate Butyrate (CAB)   ;57.71;0;18.2891;508.831;0.428;25.453;0.651;610.828;102.148;0.832;42.481;18.219;27.470;42.540;1544.000;122.749;8634.234;0.833;18.219;5736.87;111.047;-13.24
34;Polyacrylamide/acrylate;56.64;17.7341;371.526;1234.673;0.628;39.649;0.825;1335.186;138.173;0.915;52.240;32.086;9.030;51.115;3746.500;151.001;32635.591;0.925;32.086;4460.71;-36.4882;-13.24
748;Cellulose Acetate Butyrate (CAB)   ;56.01;0.130555;78.8499;620.220;0.989;28.101;0.851;656.800;98.129;0.946;37.751;25.736;36.680;29.972;1882.000;103.740;11619.362;0.944;29.650;10062.5;4428.04;-13.24
307;Polyacrylamide/acrylate    ;54.40;0.00474207;31.4193;884.851;0.759;33.565;0.824;937.745;113.005;0.884;40.759;29.652;-0.180;39.068;2685.000;127.899;19800.188;0.944;29.652;7108.31;3065.77;-13.24
71;Polycarbonate (PC)  ;53.53;0.18192;46.9386;468.296;0.399;24.418;0.647;567.986;100.333;0.846;42.216;16.856;-9.400;42.231;1421.000;118.551;7623.317;0.824;16.856;2702.92;-3251.27;-13.24
576;Polyacrylamide/acrylate;51.94;1.73955;110.687;395.959;0.831;22.453;0.760;467.307;80.820;0.870;29.796;22.249;-0.180;26.760;1201.500;92.874;5927.049;0.847;22.249;6428.04;-2747.24;-13.24
148;Polyacrylamide/acrylate;51.46;0;27.0973;683.988;0.710;29.511;0.679;764.235;104.766;0.767;40.185;25.968;-9.400;37.172;2075.500;136.551;13456.651;0.895;26.400;9554.99;-3393.64;-13.24
587;Polyacrylamide/acrylate;50.31;0.745679;101.16;615.936;0.790;28.004;0.851;648.561;93.093;0.901;32.880;24.689;27.470;31.378;1869.000;103.346;11499.179;0.950;24.793;3167.91;5838.52;-13.24
715;Polyacrylamide/acrylate    ;49.37;1.23594;155.692;595.339;0.990;27.532;0.839;634.885;93.739;0.909;32.722;27.962;18.250;28.306;1806.500;103.091;10927.223;0.938;28.035;9619.86;-910.793;-13.24
47;Polyacrylamide/acrylate    ;46.45;3.10412;99.4023;1810.897;0.763;48.018;0.838;1877.137;157.492;0.875;56.639;41.900;27.470;55.685;5495.000;180.007;57970.149;0.965;42.481;5021.58;5386.15;-13.24
460;Polyamide (PA)    ;44.94;0;7.13837;886.499;0.553;33.597;0.536;1181.944;139.711;0.710;54.771;29.507;73.540;53.962;2690.000;196.835;19855.521;0.750;29.852;3156.43;-1604.27;-13.24
698;Polyacrylamide/acrylate;43.88;0;40.2571;395.959;0.944;22.453;0.271;784.667;103.211;0.396;35.018;29.848;9.030;32.091;1201.500;260.448;5927.049;0.505;30.294;8531.43;4491.76;-13.24
526;Polyvinyl Chloride (PVC);42.98;0;34.2277;524.485;0.498;25.842;0.782;572.764;94.646;0.911;37.483;18.173;-0.180;36.483;1591.500;103.879;9035.721;0.916;18.173;9887.37;1925.67;-13.24
515;Polyamide (PA)    ;40.31;0.154085;68.4486;392.334;0.545;22.350;0.792;420.840;78.457;0.885;31.574;17.222;-0.180;31.574;1190.500;88.675;5845.841;0.932;17.222;3456.1;2820.65;-13.24
598;Polyacrylamide/acrylate;37.76;0.207108;110.921;438.471;0.471;23.628;0.437;640.817;103.207;0.608;42.216;19.890;9.030;42.216;1330.500;169.813;6906.773;0.684;19.890;7228.29;-2779.38;-13.24
777;Polyacrylamide/acrylate;37.31;0.00591965;32.7185;324.281;0.589;20.320;0.702;407.163;79.651;0.875;30.551;17.455;-9.400;29.633;984.000;90.995;4392.841;0.796;17.455;3940.03;-985.422;-13.24
183;Polyacrylamide/acrylate    ;36.55;0.389093;100.331;615.112;0.885;27.985;0.905;637.357;91.339;0.940;31.366;26.117;27.470;29.760;1866.500;97.188;11476.114;0.965;26.333;6527.93;659.856;-13.24
519;Polyurethane (PU)   ;35.35;0.0729006;108.766;506.853;0.940;25.404;0.856;535.689;83.299;0.894;28.497;24.997;18.250;26.589;1538.000;93.210;8583.954;0.946;24.997;10215.7;4725.4;-13.24
145;Polymethylmethacrylate (PMMA)    ;35.05;0;7.64032;1139.926;0.640;38.097;0.849;1189.029;128.173;0.909;48.796;31.198;73.540;48.779;3459.000;141.004;28952.010;0.959;31.218;10867.3;3301.14;-13.24
629;Polymethylmethacrylate (PMMA)    ;33.89;0.119809;86.0406;557.440;0.521;26.641;0.396;1476.235;160.655;0.760;66.237;33.132;18.250;63.616;1691.500;211.424;9900.585;0.378;33.132;9168.64;5762.17;-13.24
624;Polyacrylamide/acrylate    ;33.04;2.69993;296.775;565.184;0.891;26.826;0.797;621.373;93.107;0.881;35.686;23.418;-0.180;30.373;1715.000;105.724;10107.624;0.910;27.053;2042.17;227.583;-13.24
79;Polycarbonate (PC) ;32.05;5.73487;429.193;511.797;0.609;25.527;0.645;585.452;92.276;0.743;36.969;21.514;-9.400;35.316;1553.000;124.257;8709.838;0.874;21.514;1083.47;-2087.06;-13.24
449;Polyvinyl Chloride (PVC);31.09;0.340979;91.3937;457.256;0.793;24.129;0.409;781.207;110.413;0.596;37.314;30.474;18.250;38.439;1387.500;185.329;7355.333;0.585;30.474;10508.5;2030.73;-13.24
31;Polyacrylamide/acrylate   ;30.35;0.0430324;77.3567;488.728;0.734;24.945;0.727;559.088;87.695;0.814;30.445;22.294;27.470;30.388;1483.000;107.742;8127.643;0.874;22.294;5986.59;1586.4;-13.24
322;Polycarbonate (PC) ;29.63;0.0198013;48.5695;492.847;0.710;25.050;0.811;542.116;87.607;0.903;30.850;22.006;-0.180;30.992;1495.500;96.991;8230.619;0.909;22.006;8478.04;-1456.16;-13.24
110;Polyvinyl Chloride (PVC);29.29;0.083671;58.9342;707.387;0.984;30.011;0.725;798.673;107.959;0.831;36.200;29.852;18.250;31.516;2146.500;129.974;14153.023;0.886;31.027;9480.93;749.984;-13.24
658;Polyamide (PA)    ;28.38;0.122444;101.903;17029.352;0.390;147.250;0.415;25851.667;675.323;0.606;281.338;109.120;27.470;279.471;51674.000;1115.089;1671710.202;0.659;109.120;962.346;3649.03;-13.24
575;Polyethylene naphtalate (PEN)   ;27.00;0;4.54604;386.072;0.811;22.171;0.334;640.817;93.379;0.447;32.722;25.698;64.320;32.164;1171.500;208.734;5706.454;0.602;26.083;7123.24;-4212.83;-13.24
720;Polycarbonate (PC) ;26.42;0.484972;334.011;870.351;0.196;33.289;0.364;1958.372;238.075;0.828;107.165;21.849;27.470;111.232;2641.000;287.633;19315.479;0.444;21.854;8462.54;-914.812;-13.24
633;Polycarbonate (PC) ;26.07;0.237456;98.1844;740.342;0.961;30.702;0.890;769.178;100.521;0.928;33.947;29.277;-0.180;31.827;2246.500;108.357;15153.484;0.963;30.572;11937.9;209.213;-13.24
681;Polyacrylamide/acrylate    ;24.98;0.0373096;36.9936;487.080;0.585;24.903;0.328;1233.684;152.069;0.637;58.048;33.193;-0.180;56.924;1478.000;238.576;8086.573;0.395;33.300;4041.64;142.621;-13.24
483;Polycarbonate (PC) ;24.27;0.0247736;21.2164;453.301;0.602;24.024;0.732;508.007;85.868;0.833;33.870;19.768;-9.400;32.862;1375.500;103.091;7260.119;0.892;19.768;10459.1;2855.66;-13.24
33;Polyvinyl Chloride (PVC);23.57;0.165874;116.656;379.811;0.779;21.991;0.500;523.990;90.446;0.655;34.504;22.618;9.030;31.321;1152.500;138.093;5568.193;0.725;24.389;9734.1;-1065.22;-13.24
635;Polyether sulphone (PES);22.99;0.0529309;78.7216;618.572;0.509;28.064;0.579;805.759;115.541;0.758;46.810;23.544;9.030;46.276;1877.000;152.370;11573.089;0.768;23.544;2183.96;-779.332;-13.24
593;Polyamide (PA)    ;22.53;5.432;551.411;2787.364;0.651;59.573;0.727;3105.713;211.203;0.820;77.970;50.340;27.470;77.359;8458.000;257.421;110701.726;0.897;50.340;5757.53;2723.63;-13.24
68;Polyether sulphone (PES)   ;21.60;0.0314376;37.8253;357.895;1.000;21.347;0.919;368.276;69.084;0.947;22.510;21.140;9.030;21.241;1086.000;72.937;5093.281;0.972;21.241;2266.63;4332.17;-13.24
255;Polyethylene terephtalate (PET)   ;21.11;117.336;3681.76;5635.531;0.898;84.708;0.554;6146.174;284.642;0.593;103.463;79.862;36.680;92.649;17100.500;480.327;318248.294;0.917;83.170;3641.52;4088.76;-13.24
372;Polyacrylamide/acrylate;20.32;11.5092;603.767;731.609;0.548;30.521;0.821;785.491;108.114;0.926;42.617;23.363;-0.180;42.617;2220.000;116.811;14886.148;0.931;23.363;4603.08;-3839.11;-13.24
662;Polyphenylene sulphide (PPS)   ;19.93;7.43831;832.165;350.480;0.746;21.125;0.821;377.009;72.209;0.893;25.573;18.620;18.250;25.573;1063.500;80.835;4935.818;0.930;19.079;3282.73;186.824;-13.24
143;Polyether sulphone (PES);19.52;94.1784;4811.7;390.686;0.705;22.303;0.849;419.027;76.829;0.931;29.043;19.409;-0.180;27.538;1185.500;82.540;5809.051;0.932;19.409;4981.97;-3375.27;-13.24
150;Polyether sulphone (PES)   ;19.06;3.01268;327.366;314.724;0.735;20.018;0.894;328.565;67.110;0.954;23.619;17.788;18.250;24.206;955.000;70.363;4200.084;0.958;17.788;5661.66;1483.64;-13.24
359;Polyphenylene sulphide (PPS)   ;18.69;2.23919;3442.9;341.418;0.469;20.850;0.464;577.378;99.239;0.702;40.593;19.290;9.030;41.119;1036.000;141.282;4745.615;0.591;19.290;9889.67;-1504.95;-13.24
188;Polyether sulphone (PES)   ;18.30;6.66443;908.172;572.764;0.663;27.005;0.738;616.100;91.749;0.798;33.834;22.326;18.250;33.692;1738.000;114.991;10311.635;0.930;22.326;993.345;2294.8;-13.24
125;Polyether sulphone (PES)   ;17.84;0.00476847;212.598;1758.663;0.436;47.320;0.294;4838.341;312.299;0.618;127.055;57.157;45.900;131.165;5336.500;505.110;55480.152;0.363;57.157;9677.84;-1271.88;-13.24
213;Polyphenylene sulphide (PPS)   ;17.43;68.6992;5625.8;486.915;0.595;24.899;0.830;515.751;86.894;0.922;34.504;19.900;9.030;33.584;1477.500;94.219;8082.470;0.944;19.969;411.815;638.041;-13.24
778;Polyethylene naphtalate (PEN)   ;17.13;0;4.23788;390.851;0.959;22.308;0.611;507.842;85.576;0.746;28.703;24.810;64.320;27.169;1186.000;114.712;5812.727;0.770;26.050;1912.43;-3092.25;-13.24
549;Polyether sulphone (PES)   ;16.92;14.2317;1127.32;836.077;0.578;32.627;0.710;934.944;118.577;0.821;46.982;27.094;18.250;46.853;2537.000;144.448;18185.849;0.894;27.094;1470.4;4670.87;-13.24
175;Polyether sulphone (PES)   ;16.54;6.01724;442.946;340.758;0.803;20.829;0.851;369.924;70.875;0.922;24.685;19.385;18.250;24.142;1034.000;76.857;4731.880;0.921;19.385;11309.3;2325.8;-13.24
310;Polyphenylene sulphide (PPS)   ;16.30;128.601;7314.67;1991.657;0.658;50.357;0.762;2166.650;176.423;0.850;66.632;43.388;18.250;65.980;6043.500;207.667;66862.970;0.919;43.388;3251.73;3046.25;-13.24
744;Polyethylene terephtalate (PET)   ;16.08;0;2.93777;450.170;0.620;23.941;0.245;1009.917;125.237;0.408;46.276;27.930;73.540;45.049;1366.000;307.314;7185.036;0.446;27.930;4797.69;-1954.45;-13.24
48;Polycarbonate (PC) ;15.83;0;12.7361;650.044;0.595;28.769;0.596;827.180;111.164;0.733;43.387;25.148;55.100;42.481;1972.500;151.673;12467.472;0.786;25.259;1655.25;-1080.72;-13.24
626;Polyether sulphone (PES)   ;15.62;6.90041;511.8;1149.648;0.882;38.259;0.373;1771.845;158.465;0.491;58.535;41.523;9.030;51.335;3488.500;322.658;29323.173;0.649;45.292;5761.55;-1820.12;-13.24
699;Polyether sulphone (PES)   ;15.38;0.0866671;79.485;1146.023;0.655;38.199;0.180;11588.422;424.047;0.636;155.470;101.669;18.250;155.285;3477.500;666.780;29184.589;0.099;101.669;10764;2528.45;-13.24
243;Polyacrylamide/acrylate    ;15.03;4.62035;393.53;728.478;0.495;30.455;0.790;790.764;113.933;0.940;47.493;23.291;18.250;47.068;2210.500;121.183;14790.697;0.921;23.313;6143.88;6472.86;-13.24
652;Polyacrylamide/acrylate    ;14.46;13.9206;1008.77;660.425;0.701;28.998;0.918;674.761;95.226;0.960;34.915;24.568;9.030;35.047;2004.000;99.229;12767.311;0.979;24.568;7420.61;-799.998;-13.24
450;Polycarbonate (PC) ;13.93;0;55.367;1060.668;0.355;36.749;0.614;1247.196;155.967;0.829;67.384;23.727;-9.400;66.857;3218.500;188.149;25985.623;0.850;23.727;2448.03;-2550.9;-13.24
257;Polycarbonate (PC) ;13.65;0.0333036;36.6266;564.855;0.878;26.818;0.873;589.571;91.325;0.947;32.091;25.455;45.900;30.545;1714.000;96.457;10098.784;0.958;26.827;4810.89;5053.77;-13.24
766;Polyether sulphone (PES);13.38;0;43.4645;811.855;1.000;32.151;0.840;878.590;109.921;0.914;38.563;31.318;27.470;32.880;2463.500;120.232;17401.301;0.924;32.880;8931.55;899.816;-13.24
612;Polyphenylene sulphide (PPS)   ;13.07;0;56.498;388.049;0.651;22.228;0.598;491.529;91.171;0.780;37.311;21.118;-0.180;33.222;1177.500;116.869;5750.350;0.789;21.615;3594.45;4599.11;-13.24
442;Polyether sulphone (PES);12.86;27.9244;1832.06;319.337;0.455;20.164;0.789;345.207;74.725;0.931;29.781;13.515;9.030;29.720;969.000;80.302;4292.779;0.925;13.515;3472.74;2898.72;-13.24
589;Polyether sulphone (PES)   ;12.43;1.15837;115.926;453.795;0.947;24.037;0.785;495.813;83.307;0.866;30.039;23.239;-0.180;25.531;1377.000;96.179;7271.999;0.915;24.165;9959.13;3761.54;-13.24
394;Polycarbonate (PC) ;12.27;225.743;12667.6;882.050;0.901;33.512;0.847;930.000;109.416;0.880;36.166;32.540;18.250;36.128;2676.500;124.315;19706.239;0.948;32.555;7375.25;6206.5;-13.24
604;Polycarbonate (PC) ;12.11;0;67.9533;1865.273;0.171;48.733;0.191;6957.865;504.592;0.629;238.040;41.017;9.030;239.682;5660.000;802.211;60600.683;0.268;41.017;7045.74;3735.14;-13.24
505;Polyether sulphone (PES)   ;11.75;0.0420681;74.0343;445.392;0.547;23.814;0.718;519.212;88.081;0.846;35.018;18.787;9.030;34.375;1351.500;104.158;7070.937;0.858;18.787;2720.14;4739.75;-13.24
236;Polycarbonate (PC) ;11.53;3.85725;326.661;661.744;0.925;29.027;0.843;698.159;95.101;0.879;32.162;28.129;45.900;30.426;2008.000;108.217;12805.556;0.948;28.129;6627.82;5093.38;-13.24
203;Polycarbonate (PC) ;11.17;22.0906;1248.42;14861.713;0.181;137.559;0.371;21503.042;830.288;0.712;394.384;71.390;45.900;394.132;45096.500;1165.957;1362909.840;0.691;71.390;10788.1;2145.54;-13.24
355;Polycarbonate (PC) ;10.80;0.0146269;20.3341;738.859;0.716;30.672;0.839;781.042;106.590;0.928;41.077;26.966;55.100;39.098;2242.000;114.909;15107.976;0.946;28.002;9797.82;3022.14;-13.24
111;Polycarbonate (PC) ;10.56;0.2633;134.57;349.821;0.966;21.105;0.899;364.486;68.572;0.930;22.336;21.046;9.030;21.793;1061.500;73.749;4921.901;0.960;21.046;9556.71;1516.36;-13.24
300;Polycarbonate (PC) ;10.22;0;43.3333;412.766;0.733;22.925;0.791;441.272;78.430;0.861;28.497;20.282;9.030;27.981;1252.500;91.053;6308.404;0.935;20.497;11376.5;3074.96;-13.24
232;Polyphenylene sulphide (PPS)   ;9.91;0;24.8743;442.096;0.871;23.725;0.715;538.161;86.951;0.834;28.703;24.636;27.470;28.415;1341.500;104.240;6992.603;0.821;24.762;10752.5;-263.245;-13.24
736;Polyether sulphone (PES);9.60;0.482544;182.975;336.804;0.947;20.708;0.610;431.880;81.356;0.763;30.294;20.590;27.470;25.272;1022.000;106.594;4649.746;0.780;23.933;6831.04;2585.28;-13.24
173;Polyether sulphone (PES);9.41;0.00406287;24.0386;620.385;0.910;28.105;0.813;687.449;95.972;0.883;32.987;27.700;27.470;30.428;1882.500;108.635;11623.993;0.902;27.700;6446.41;2328.1;-13.24
729;Polyethylene naphtalate (PEN)   ;9.25;23.7283;516.686;572.105;0.332;26.989;0.604;691.898;119.928;0.854;53.176;17.651;18.250;53.217;1736.000;140.494;10293.841;0.827;17.651;6067.53;2578.39;-13.24
229;Polyether sulphone (PES);9.17;0.488936;76.6138;598.469;0.640;27.604;0.881;622.527;92.679;0.941;35.172;22.659;18.250;35.383;1816.000;98.475;11013.533;0.961;22.659;1557.08;4166.83;-13.24
287;Polyether sulphone (PES)   ;9.09;0.269176;44.045;484.444;0.400;24.836;0.611;633.402;111.556;0.873;48.222;18.679;-9.400;47.441;1470.000;127.736;8021.007;0.765;18.956;5530.78;-2370.07;-13.24
202;Polyether sulphone (PES);8.83;2.9136;540.598;699.148;0.594;29.836;0.852;733.586;101.385;0.922;39.542;23.530;27.470;39.630;2121.500;109.980;13906.487;0.953;23.530;5697.83;5156.53;-13.24
112;Polytetrafluoroethylene (PTFE)    ;8.68;0;14.8888;730.291;0.879;30.493;0.564;930.165;116.285;0.685;41.847;30.122;36.680;36.652;2216.000;169.789;14845.933;0.785;32.208;5116.87;3341.9;-13.24
386;Polyphenylene sulphide (PPS)   ;8.51;0.64757;93.8702;388.708;0.553;22.247;0.628;468.131;88.868;0.799;35.429;19.518;-9.400;35.282;1179.500;111.210;5765.006;0.830;19.518;8012.47;-3849.45;-13.24
130;Polycarbonate (PC) ;8.32;0.253029;120.384;314.229;0.559;20.002;0.743;346.361;73.170;0.865;28.553;15.884;18.250;28.500;953.500;84.558;4190.192;0.907;15.922;8390.21;-110.543;-13.24
208;Polycarbonate (PC) ;8.09;0;8.13717;1201.717;0.395;39.116;0.447;2039.937;201.237;0.731;86.684;34.178;73.540;86.589;3646.500;275.177;31337.706;0.589;34.178;9598.04;1422.22;-13.24
438;Polyacrylamide/acrylate    ;7.79;15.4136;374.762;34294.335;0.759;208.961;0.481;46328.809;863.018;0.632;317.841;221.603;73.540;291.910;104063.000;1364.738;4777463.573;0.740;221.603;1252.25;4773.05;-13.24
603;Polyvinyl Chloride (PVC);7.60;0;32.8306;814.492;0.678;32.203;0.718;921.432;116.771;0.829;45.464;28.752;18.250;43.569;2471.500;140.865;17486.134;0.884;29.548;3555.41;-4270.81;-13.24
134;Polyvinyl Chloride (PVC);7.34;0;60.9184;632.249;0.556;28.373;0.607;726.995;105.995;0.722;41.907;23.065;-9.400;41.458;1918.500;146.768;11959.020;0.870;23.065;9153.72;-1208.73;-13.24
162;Polyphenylene sulphide (PPS)   ;7.13;0;42.3976;776.758;0.694;31.448;0.733;907.426;117.729;0.873;43.901;29.540;27.470;42.555;2357.000;134.869;16285.168;0.856;29.540;4572.66;2342.45;-13.24
529;Polyphenylene sulphide (PPS)   ;6.78;1.89148;68.1743;415.238;0.657;22.993;0.600;508.996;86.485;0.718;32.605;20.901;-9.400;31.818;1260.000;120.453;6365.151;0.816;20.901;10910.4;-4110.65;-13.24
513;Polytetrafluoroethylene (PTFE)    ;6.29;0.0880497;67.908;1706.099;0.540;46.608;0.704;1900.865;168.956;0.812;66.750;36.670;36.680;67.894;5177.000;208.004;53011.503;0.898;36.670;11170.4;-1670.86;-13.24
94;Polycarbonate (PC)  ;5.71;0;27.3585;699.972;0.944;29.854;0.855;750.723;101.013;0.921;35.581;28.730;55.100;31.835;2124.000;109.644;13931.075;0.932;30.038;8615.24;5311.53;-13.24
391;Polyvinyl Chloride (PVC);5.60;0.0101616;30.1216;331.696;0.705;20.551;0.439;506.524;85.164;0.579;30.850;21.693;18.250;30.773;1006.500;147.162;4544.368;0.655;21.693;8974.61;-2490.63;-13.24
64;Polytetrafluoroethylene (PTFE);5.38;0;15.0762;578.367;0.973;27.137;0.867;613.134;90.060;0.916;31.574;25.673;27.470;28.240;1755.000;98.360;10463.297;0.943;27.470;3626.02;5357.45;-13.24
346;Polyphenylene sulphide (PPS)   ;5.11;18.4463;1338.9;1444.104;0.907;42.880;0.789;1534.896;144.654;0.847;49.071;40.669;27.470;45.630;4382.000;170.822;41282.067;0.941;41.396;1481.3;2120.86;-13.24
621;Polycarbonate (PC)  ;4.64;10.2832;564.609;1376.216;0.528;41.860;0.798;1439.325;146.400;0.889;58.791;30.672;27.470;58.092;4176.000;164.721;38405.516;0.956;30.683;6348.25;226.435;-13.24
52;Polycarbonate (PC) ;4.46;0.197043;102.714;385.083;0.503;22.143;0.836;405.680;78.143;0.939;31.835;16.048;-0.180;31.898;1168.500;83.213;5684.548;0.949;16.048;2233.33;1561.72;-13.24
497;Polyethylene terephtalate (PET)   ;4.30;5.06678;439.375;800.980;0.965;31.935;0.916;823.060;102.244;0.934;33.221;31.465;36.680;32.722;2430.500;109.505;17052.824;0.973;31.574;1779.24;-579.556;-13.24
334;Polytetrafluoroethylene (PTFE);4.16;0;15.5591;909.074;0.939;34.022;0.656;1020.463;118.831;0.730;39.939;34.711;55.100;37.769;2758.500;162.842;20618.751;0.891;35.458;8968.29;-2415.42;-13.24
430;Polycarbonate (PC)  ;4.03;0.0105555;62.4618;656.306;0.871;28.907;0.899;677.562;93.932;0.930;33.416;26.866;36.680;30.888;1991.500;100.992;12648.043;0.969;26.908;10726.7;1212.11;-13.24
425;Polyether sulphone (PES);3.91;0;13.7602;516.905;0.931;25.654;0.588;652.516;95.559;0.697;36.456;24.838;36.680;29.929;1568.500;137.026;8840.558;0.792;27.862;4694.36;-2529.66;-13.24
378;Polytetrafluoroethylene (PTFE);3.73;0;33.7325;547.553;0.721;26.404;0.833;578.202;90.894;0.913;35.686;22.979;45.900;32.662;1661.500;99.565;9638.365;0.947;23.558;8822.48;1248.28;-13.24
581;Polyethylene (PE)  ;3.50;5.71134;506.071;586.935;0.995;27.337;0.861;617.913;89.860;0.901;29.772;27.470;9.030;28.264;1781.000;99.705;10696.674;0.950;28.125;7629.57;3764.41;-13.24
1;Polyethylene terephtalate (PET)   ;3.17;19.0047;864.592;150249.579;0.417;437.383;0.570;170805.154;1767.160;0.733;778.189;326.916;55.100;784.432;455918.500;2410.785;43811053.265;0.880;326.916;9359.81;5325.88;-13.24
87;Polystyrene (PS);2.81;0;29.501;1413.950;0.858;42.430;0.743;1543.629;146.988;0.819;50.104;42.119;45.900;49.113;4290.500;179.392;39995.832;0.916;42.119;6315.53;-2112.89;-13.24
146;Polyethylene terephtalate (PET)   ;2.55;0.00604686;30.629;649.550;0.627;28.758;0.882;673.113;97.211;0.949;36.969;23.215;64.320;37.007;1971.000;102.477;12453.253;0.965;23.215;9524.56;1484.22;-13.24
114;Polyethylene terephtalate (PET)   ;2.09;0;39.0685;354.600;0.562;21.248;0.802;383.765;77.394;0.929;31.000;16.775;-9.400;29.835;1076.000;83.271;5023.094;0.924;16.775;8653.13;747.688;-13.24
65;Polyethylene terephtalate (PET)   ;1.89;0;60.5288;810.867;0.762;32.131;0.744;883.863;111.344;0.821;41.810;29.173;-9.400;38.719;2460.500;135.599;17369.524;0.917;29.498;5508.96;2446.35;-13.24
128;Polystyrene (PS)  ;1.76;1.9323;164.785;317.854;0.991;20.117;0.836;336.804;65.851;0.871;21.822;20.282;27.470;20.599;964.500;75.570;4262.911;0.944;20.411;6235.16;3326.97;-13.24
164;Polycarbonate (PC) ;1.46;0.237201;83.0569;643.124;0.661;28.616;0.822;693.216;100.705;0.921;39.280;23.208;-0.180;36.831;1951.500;109.308;12268.902;0.928;24.350;7700.18;3259.81;-13.24
643;Polyethylene naphtalate (PEN)   ;1.24;0;20.9183;415.897;0.680;23.012;0.783;440.943;78.067;0.845;29.267;19.518;55.100;28.703;1262.000;92.340;6380.312;0.943;19.518;5243.17;204.046;-13.24
362;Polytetrafluoroethylene (PTFE)    ;1.13;0;15.49;775.440;0.769;31.422;0.852;825.697;106.988;0.923;38.563;28.719;64.320;38.289;2353.000;115.860;16243.730;0.939;29.432;10079.1;1257.46;-13.24
184;Polypropylene (PP) Lab bench;0.34;0.669018;376.47;1171.893;0.584;38.628;0.664;1454.814;149.595;0.818;60.845;31.973;-9.400;55.137;3556.000;182.778;30178.351;0.806;32.186;3717.87;1427.96;-13.24
306;Polyethylene (PE);0.01;0;21.626;656.636;0.615;28.915;0.720;790.599;107.813;0.855;40.846;24.976;36.680;40.626;1992.500;126.136;12657.571;0.831;24.976;4142.68;-336.726;-13.24